Folder: Electrical-Datasets-Alkaline-Batteries

Note: README.md
# Electrical-Datasets-Alkaline-Batteries

This repository contains the impedance spectroscopy and rest-voltage interval datasets used in the analysis presented in the paper:

*“Modeling of Alkaline Batteries and Investigation of the Relationship Between Electrochemical Impedance and Raman Spectroscopy,”*  
**Journal of Energy Storage**, 2026.

The paper is co-authored by Marzio Barresi, Simone Barcellona, Cha Long, Lorenzo Codecasa, Marco Menegazzo, Rossella Yivlialin, Eugenio Gibertini, Andrea Lucotti, Gianlorenzo Bussetti, and Samuele Grillo.

---

## Dataset description

This repository provides raw experimental impedance spectroscopy and rest-voltage interval data collected according to the battery test matrix reported in the paper.

---

## Impedance spectroscopy datasets

The following CSV files contain raw experimental data obtained from galvanostatic electrochemical impedance spectroscopy (GEIS) measurements performed on individual cells:

- `Cell_1_GEIS.csv`
- `Cell_2_GEIS.csv`
- `Cell_3_GEIS.csv`
- `Cell_4_GEIS.csv`
- `Cell_5_GEIS.csv`
- `Cell_6_GEIS.csv`
- `Cell_7_GEIS.csv`
- `Cell_8_GEIS.csv`
- `Cell_9_GEIS.csv`

### Data format (GEIS)

All GEIS datasets are provided in CSV format with the following columns:

- **SOC [%]** – Battery state of charge  
- **Voltage [V]** – Measured battery voltage  
- **Frequency [Hz]** – Excitation frequency  
- **Re(Ztot) [Ohm]** – Real part of the total battery impedance (Re(Ztot))  
- **-Im(Ztot) [Ohm]** – Negative imaginary part of the total battery impedance (-Im(Ztot))

---

## Rest-voltage interval datasets

The following CSV files contain rest-voltage interval data measured on individual cells:

- `Cell_2_REST.csv`
- `Cell_3_REST.csv`
- `Cell_4_REST.csv`
- `Cell_5_REST.csv`
- `Cell_6_REST.csv`
- `Cell_7_REST.csv`
- `Cell_8_REST.csv`
- `Cell_9_REST.csv`

### Data format (REST)

All rest-voltage interval datasets are provided in CSV format with the following columns:

- **SOC [%]** – Battery state of charge  
- **Time [s]** – Time interval  
- **Voltage [V]** – Measured battery voltage  

---

## Contact

For further information or assistance, please contact:  
- marzio.barresi@polimi.it  
- simone.barcellona@polimi.it

---

## License

This dataset is licensed under the **Creative Commons Attribution 4.0 International License (CC BY 4.0)**.

File: Cell_3_GEIS.csv
SOC [%],Voltage [V],Frequency [Hz],Re(Ztot) [Ohm],-Im(Ztot) [Ohm]
60,1.35686,100003.71,0.1291343,-0.115648
60,1.35686,79433.273,0.129349,-0.0891586
60,1.356861,63093.824,0.126322,-0.0686733
60,1.35686,50122.477,0.124196,-0.0537074
60,1.35687,39814.059,0.126664,-0.0401785
60,1.35687,31621.139,0.127865,-0.0264508
60,1.35687,25116.91,0.127876,-0.0209376
60,1.35687,19948.785,0.128788,-0.0125685
60,1.35687,15847.683,0.129767,-0.0102804
60,1.35687,12590.93,0.132144,-0.003705366
60,1.35687,10002.226,0.132106,0.000199829
60,1.35687,7943.999,0.135724,0.004835533
60,1.35686,6307.73,0.1360667,0.00486868
60,1.35686,5011.604,0.140012,0.00632104
60,1.35685,3981.27,0.141292,0.00860292
60,1.35686,3161.01,0.144754,0.0105183
60,1.35686,2510.8,0.145663,0.0126483
60,1.35686,1995.64,0.148217,0.0153777
60,1.35686,1585.51,0.150479,0.0172676
60,1.35686,1258.79,0.153314,0.0157337
60,1.35686,1000.32,0.155097,0.0185062
60,1.35685,794.238,0.1585384,0.0202518
60,1.35686,631.01,0.16056,0.021195
60,1.35686,501.444,0.164188,0.0216286
60,1.35686,398.089,0.166465,0.02369741
60,1.356861,316.316,0.16973,0.0239146
60,1.35685,251.044,0.173044,0.0263269
60,1.35686,199.553,0.176984,0.028731
60,1.35687,158.428,0.183354,0.0298533
60,1.35686,125.846,0.184738,0.0335947
60,1.35687,100.032,0.188493,0.035576
60,1.35687,79.4155,0.194363,0.0388139
60,1.35687,63.0823,0.197415,0.0417231
60,1.35687,50.1444,0.203947,0.0431755
60,1.35686,39.8089,0.208377,0.0478029
60,1.35687,31.6296,0.2149529,0.0519053
60,1.35687,25.1044,0.220473,0.0584235
60,1.35687,19.9553,0.2290474,0.061329
60,1.35687,15.8576,0.234907,0.0700351
60,1.35687,12.6008,0.243382,0.076821
60,1.35686,10.0032,0.252503,0.0861957
60,1.35687,7.93953,0.262607,0.0968504
60,1.35687,6.31058,0.274582,0.108628
60,1.35686,5.00801,0.289832,0.123531
60,1.35688,3.97785,0.306211,0.138607
60,1.35688,3.16296,0.326789,0.154483
60,1.35689,2.51367,0.351261,0.169815
60,1.35689,1.99553,0.380102,0.185318
60,1.356876,1.58533,0.412298,0.198075
60,1.35689,1.25967,0.446621,0.2068198
60,1.356877,1.00006,0.483684,0.211816
60,1.35688,0.793631,0.518841,0.212384
60,1.35689,0.630905,0.551168,0.207416
60,1.35689,0.501541,0.581096,0.20387
60,1.35689,0.397745,0.608073,0.198428
60,1.3569,0.3161931,0.6314739,0.192043
60,1.35692,0.251222,0.651659,0.186089
60,1.35693,0.199339,0.670455,0.182042
60,1.35694,0.158607,0.689128,0.180963
60,1.35695,0.125939,0.707224,0.18161
60,1.35696,0.10007,0.724508,0.18257
60,1.35717,100003.71,0.128655,-0.1150423
60,1.35715,79433.273,0.12702,-0.0881902
60,1.35715,63093.824,0.126888,-0.0689962
60,1.35715,50122.477,0.12517,-0.0513089
60,1.35714,39814.059,0.125234,-0.0373393
60,1.35714,31621.139,0.12729,-0.0291189
60,1.35714,25116.91,0.129362,-0.0211762
60,1.35713,19948.785,0.12906,-0.0130612
60,1.35713,15847.683,0.129647,-0.00817924
60,1.35712,12590.93,0.1318634,-0.00311427
60,1.35712,10002.226,0.132904,-0.00102937
60,1.35712,7943.999,0.13555,0.00241841
60,1.35711,6307.73,0.1353633,0.00578181
60,1.3571,5011.604,0.139068,0.00630168
60,1.3571,3981.27,0.140717,0.00951609
60,1.3571,3161.01,0.1428863,0.0115142
60,1.3571,2510.8,0.146049,0.0124004
60,1.3571,1995.64,0.147712,0.0153736
60,1.35709,1585.51,0.151022,0.0155327
60,1.35709,1258.79,0.152517,0.0160025
60,1.3571,1000.32,0.154748,0.018005
60,1.357092,794.238,0.1572209,0.0186317
60,1.35709,631.01,0.160925,0.0213607
60,1.35709,501.444,0.165226,0.0212665
60,1.35709,398.089,0.166248,0.0247368
60,1.35709,316.316,0.171423,0.0245549
60,1.35709,251.044,0.172786,0.0271572
60,1.35709,199.553,0.176462,0.0279743
60,1.357089,158.428,0.17986,0.0308197
60,1.35708,125.846,0.184703,0.0308192
60,1.35708,100.032,0.190596,0.0344255
60,1.35709,79.4155,0.192835,0.0377234
60,1.35709,63.0823,0.198846,0.039072
60,1.357084,50.1444,0.203261,0.04416278
60,1.35708,39.8089,0.2101834,0.0473867
60,1.35708,31.6296,0.215024,0.05177087
60,1.35708,25.1044,0.22186,0.0553667
60,1.357078,19.9553,0.22836,0.0624316
60,1.35708,15.8576,0.235091,0.0669401
60,1.35708,12.6008,0.244873,0.0769052
60,1.35707,10.0032,0.252917,0.0854009
60,1.35708,7.93953,0.263568,0.09561675
60,1.35708,6.31058,0.275865,0.107467
60,1.35707,5.00801,0.290464,0.122229
60,1.35708,3.97785,0.308225,0.1364371
60,1.35708,3.16296,0.328089,0.152764
60,1.35709,2.51367,0.352995,0.1672176
60,1.35709,1.99553,0.383147,0.180169
60,1.35708,1.58533,0.414578,0.191615
60,1.35709,1.25967,0.448721,0.198928
60,1.35708,1.00006,0.484161,0.202659
60,1.35708,0.793631,0.51829,0.202328
60,1.357097,0.630905,0.548879,0.197699
60,1.35709,0.501541,0.578744,0.194595
60,1.35708,0.397745,0.604929,0.1906721
60,1.35709,0.3161931,0.628108,0.18552
60,1.35711,0.251222,0.648201,0.181142
60,1.35712,0.199339,0.667422,0.177826
60,1.35712,0.158607,0.68675,0.178108
60,1.35712,0.125939,0.705559,0.180043
60,1.35713,0.10007,0.723463,0.181969

File: Cell_4_GEIS.csv
SOC [%],Voltage [V],Frequency [Hz],Re(Ztot) [Ohm],-Im(Ztot) [Ohm]
50,1.33532,100003.71,0.14024,-0.186982
50,1.33532,79433.273,0.138659,-0.1432194
50,1.33532,63093.824,0.13734,-0.113013
50,1.335324,50122.477,0.13782,-0.0860203
50,1.33532,39814.059,0.1377639,-0.0630984
50,1.33532,31621.139,0.142251,-0.04743
50,1.33532,25116.91,0.141934,-0.0359472
50,1.33532,19948.785,0.143088,-0.0264042
50,1.33532,15847.683,0.14516,-0.0169532
50,1.33532,12590.93,0.14585,-0.00987724
50,1.33532,10002.226,0.147636,-0.00399932
50,1.33532,7943.999,0.152226,0.00226168
50,1.33531,6307.73,0.153079,0.0047813
50,1.33531,5011.604,0.157017,0.00929127
50,1.33531,3981.27,0.157815,0.0125217
50,1.33531,3161.01,0.160217,0.0166159
50,1.33531,2510.8,0.165143,0.0162781
50,1.33532,1995.64,0.167004,0.0173726
50,1.33532,1585.51,0.172214,0.0192507
50,1.33532,1258.79,0.17413,0.0221505
50,1.33532,1000.32,0.177673,0.0214242
50,1.33532,794.238,0.181813,0.02321651
50,1.33532,631.01,0.1848463,0.0249146
50,1.33532,501.444,0.189155,0.0264158
50,1.33531,398.089,0.1940276,0.0261561
50,1.335315,316.316,0.197125,0.0283004
50,1.33532,251.044,0.201364,0.0288785
50,1.335319,199.553,0.204103,0.0312082
50,1.33532,158.428,0.209397,0.0320054
50,1.33532,125.846,0.214709,0.0364558
50,1.33532,100.032,0.219412,0.03802016
50,1.33532,79.4155,0.22225,0.041643
50,1.33532,63.0823,0.229524,0.04279073
50,1.33532,50.1444,0.233845,0.0470675
50,1.33532,39.8089,0.24146,0.0511919
50,1.33532,31.6296,0.245919,0.0560052
50,1.33532,25.1044,0.252942,0.0612758
50,1.33533,19.9553,0.262186,0.0660558
50,1.335331,15.8576,0.268446,0.0734211
50,1.33533,12.6008,0.2776244,0.0815586
50,1.33533,10.0032,0.287091,0.09212631
50,1.33531,7.93953,0.297073,0.101606
50,1.33532,6.31058,0.309101,0.114279
50,1.33532,5.00801,0.321791,0.1291237
50,1.33533,3.97785,0.3382377,0.146505
50,1.33534,3.16296,0.3574,0.165503
50,1.33534,2.51367,0.380564,0.1870992
50,1.33534,1.99553,0.410518,0.2099283
50,1.335327,1.58533,0.44458,0.230648
50,1.33534,1.25967,0.485011,0.249731
50,1.33533,1.00006,0.5297327,0.263655
50,1.33534,0.793631,0.576802,0.271545
50,1.33535,0.630905,0.623196,0.2718001
50,1.33535,0.501541,0.6672489,0.268801
50,1.33535,0.397745,0.707298,0.261376
50,1.33536,0.3161931,0.74218,0.251702
50,1.33539,0.251222,0.772101,0.241581
50,1.33541,0.199339,0.798686,0.232591
50,1.33542,0.158607,0.824012,0.227151
50,1.335428,0.125939,0.847282,0.223618
50,1.33544,0.10007,0.869149,0.220964
50,1.33568,100003.71,0.138476,-0.1867062
50,1.33565,79433.273,0.138002,-0.144985
50,1.33565,63093.824,0.137716,-0.112002
50,1.33564,50122.477,0.138544,-0.0863865
50,1.33564,39814.059,0.138467,-0.0655155
50,1.335636,31621.139,0.139958,-0.0480262
50,1.33563,25116.91,0.1437389,-0.0368539
50,1.33563,19948.785,0.14395,-0.0253444
50,1.33562,15847.683,0.145872,-0.01740171
50,1.33562,12590.93,0.1470698,-0.00962485
50,1.33561,10002.226,0.150879,-0.00359605
50,1.335609,7943.999,0.151561,0.000933743
50,1.3356,6307.73,0.152839,0.005250378
50,1.33559,5011.604,0.15647,0.00788528
50,1.33559,3981.27,0.158907,0.0112516
50,1.33559,3161.01,0.162967,0.0147062
50,1.335584,2510.8,0.165257,0.0165873
50,1.33559,1995.64,0.169368,0.0184684
50,1.33559,1585.51,0.172411,0.0210812
50,1.33558,1258.79,0.175258,0.0221896
50,1.33558,1000.32,0.178401,0.0227881
50,1.33558,794.238,0.182751,0.0240075
50,1.33557,631.01,0.184055,0.0250362
50,1.33557,501.444,0.18915,0.0253269
50,1.33557,398.089,0.19324,0.0268409
50,1.33557,316.316,0.195998,0.028104
50,1.33557,251.044,0.201761,0.028698
50,1.33557,199.553,0.205167,0.0306603
50,1.33557,158.428,0.209598,0.034617
50,1.33557,125.846,0.213212,0.03593694
50,1.33556,100.032,0.21912,0.0378753
50,1.33556,79.4155,0.222124,0.0404383
50,1.33556,63.0823,0.2288276,0.04417
50,1.33557,50.1444,0.233257,0.0470785
50,1.33557,39.8089,0.238731,0.0521989
50,1.33557,31.6296,0.245067,0.0562214
50,1.33556,25.1044,0.251228,0.0593196
50,1.33556,19.9553,0.260081,0.0667474
50,1.33556,15.8576,0.268878,0.0738939
50,1.33556,12.6008,0.276429,0.08240664
50,1.33557,10.0032,0.2867628,0.0889499
50,1.33555,7.93953,0.296134,0.0998634
50,1.33556,6.31058,0.309003,0.113352
50,1.33557,5.00801,0.321312,0.129885
50,1.33556,3.97785,0.339518,0.146153
50,1.33556,3.16296,0.3588948,0.165175
50,1.33557,2.51367,0.383195,0.185868
50,1.33556,1.99553,0.4133817,0.206439
50,1.33556,1.58533,0.448056,0.226155
50,1.33556,1.25967,0.4889487,0.243432
50,1.33556,1.00006,0.53291,0.255045
50,1.33556,0.793631,0.579361,0.263154
50,1.335565,0.630905,0.624155,0.263002
50,1.33557,0.501541,0.666902,0.258832
50,1.33556,0.397745,0.70645,0.253943
50,1.33556,0.3161931,0.740659,0.246357
50,1.33557,0.251222,0.771327,0.238081
50,1.33559,0.199339,0.797998,0.230303
50,1.3356,0.158607,0.821901,0.224152
50,1.33562,0.125939,0.846227,0.221811
50,1.335618,0.10007,0.8695305,0.2211062

File: Cell_5_GEIS.csv
SOC [%],Voltage [V],Frequency [Hz],Re(Ztot) [Ohm],-Im(Ztot) [Ohm]
40,1.30729,100003.71,0.154643,-0.167505
40,1.3073,79433.273,0.153043,-0.129906
40,1.30729,63093.824,0.1518327,-0.101734
40,1.3073,50122.477,0.152,-0.0767074
40,1.3073,39814.059,0.15286,-0.0582489
40,1.3073,31621.139,0.154661,-0.044201
40,1.307302,25116.91,0.154107,-0.03282759
40,1.3073,19948.785,0.155249,-0.0216711
40,1.3073,15847.683,0.158761,-0.01248767
40,1.30731,12590.93,0.158119,-0.00729678
40,1.3073,10002.226,0.159703,-0.00166442
40,1.307307,7943.999,0.1626,0.00474608
40,1.30729,6307.73,0.166692,0.0085275
40,1.30729,5011.604,0.167579,0.01158902
40,1.30729,3981.27,0.171746,0.0155397
40,1.3073,3161.01,0.174486,0.0192674
40,1.3073,2510.8,0.178426,0.0225233
40,1.30729,1995.64,0.1827618,0.0233373
40,1.3073,1585.51,0.187895,0.0258498
40,1.3073,1258.79,0.1931,0.0265841
40,1.3073,1000.32,0.196038,0.0288896
40,1.3073,794.238,0.201207,0.03253122
40,1.3073,631.01,0.206799,0.03357318
40,1.3073,501.444,0.211545,0.0352906
40,1.3073,398.089,0.216767,0.03571659
40,1.3073,316.316,0.222088,0.0374232
40,1.3073,251.044,0.227684,0.0379698
40,1.3073,199.553,0.233117,0.0405544
40,1.30731,158.428,0.237056,0.0434836
40,1.3073,125.846,0.245224,0.0444873
40,1.3073,100.032,0.250844,0.04763516
40,1.3073,79.4155,0.25547,0.0509824
40,1.3073,63.0823,0.2633549,0.0516438
40,1.3073,50.1444,0.27026,0.057718
40,1.3073,39.8089,0.276931,0.0608466
40,1.3073,31.6296,0.286457,0.0651155
40,1.3073,25.1044,0.293075,0.0703851
40,1.30731,19.9553,0.302621,0.0746857
40,1.30731,15.8576,0.309816,0.0805541
40,1.30731,12.6008,0.320809,0.0890659
40,1.30732,10.0032,0.3298386,0.0978528
40,1.3073,7.93953,0.342023,0.107025
40,1.30732,6.31058,0.354572,0.119928
40,1.30732,5.00801,0.368192,0.133114
40,1.30731,3.97785,0.383509,0.150055
40,1.30733,3.16296,0.400727,0.170551
40,1.30734,2.51367,0.421614,0.1938341
40,1.30732,1.99553,0.448765,0.219252
40,1.307318,1.58533,0.478767,0.2476837
40,1.30733,1.25967,0.516656,0.278
40,1.30733,1.00006,0.562888,0.305671
40,1.30732,0.793631,0.616331,0.33162
40,1.307346,0.630905,0.676364,0.349935
40,1.30736,0.501541,0.739456,0.359377
40,1.30735,0.397745,0.802489,0.360884
40,1.30736,0.3161931,0.861218,0.353139
40,1.30739,0.251222,0.913626,0.340319
40,1.30742,0.199339,0.959034,0.324823
40,1.307444,0.158607,0.998582,0.310825
40,1.30746,0.125939,1.03445,0.299364
40,1.30748,0.10007,1.06631,0.290478
40,1.30789,100003.71,0.15498,-0.168485
40,1.3078,79433.273,0.153671,-0.132455
40,1.30778,63093.824,0.151932,-0.1010295
40,1.307772,50122.477,0.152027,-0.078274
40,1.30777,39814.059,0.152222,-0.0586725
40,1.30776,31621.139,0.15518,-0.0437043
40,1.30775,25116.91,0.155117,-0.0329021
40,1.30773,19948.785,0.155255,-0.022156
40,1.30774,15847.683,0.159283,-0.0133912
40,1.30772,12590.93,0.158233,-0.00743973
40,1.307722,10002.226,0.160148,-0.00235247
40,1.30772,7943.999,0.162757,0.00639891
40,1.3077,6307.73,0.1649407,0.00769265
40,1.3077,5011.604,0.170174,0.0144868
40,1.3077,3981.27,0.172077,0.016918
40,1.30769,3161.01,0.174852,0.0198824
40,1.30769,2510.8,0.179634,0.0227422
40,1.30768,1995.64,0.182511,0.02365366
40,1.30768,1585.51,0.188535,0.0259911
40,1.30767,1258.79,0.189927,0.0280756
40,1.30767,1000.32,0.19519,0.0299751
40,1.30766,794.238,0.201095,0.03009625
40,1.30766,631.01,0.206479,0.0336703
40,1.30766,501.444,0.210968,0.03429541
40,1.30766,398.089,0.216096,0.0362448
40,1.30766,316.316,0.2207457,0.037428
40,1.30765,251.044,0.227026,0.0393885
40,1.30765,199.553,0.232426,0.0401671
40,1.30766,158.428,0.236053,0.0421295
40,1.30765,125.846,0.244351,0.0449183
40,1.30765,100.032,0.250612,0.0457753
40,1.30765,79.4155,0.256176,0.0488807
40,1.30764,63.0823,0.262672,0.0518321
40,1.30764,50.1444,0.269683,0.0559447
40,1.30764,39.8089,0.278507,0.061114
40,1.30764,31.6296,0.284271,0.0630827
40,1.30763,25.1044,0.292957,0.0683516
40,1.30764,19.9553,0.303052,0.076112
40,1.30763,15.8576,0.310415,0.0805864
40,1.30764,12.6008,0.3215569,0.0885794
40,1.30764,10.0032,0.332273,0.0987318
40,1.30762,7.93953,0.342881,0.107278
40,1.30763,6.31058,0.3561146,0.119902
40,1.30764,5.00801,0.3685171,0.133851
40,1.30763,3.97785,0.384482,0.1512883
40,1.30764,3.16296,0.401532,0.1703434
40,1.30764,2.51367,0.423768,0.193117
40,1.30763,1.99553,0.450192,0.218815
40,1.30762,1.58533,0.482226,0.245989
40,1.30762,1.25967,0.521428,0.274682
40,1.30762,1.00006,0.568092,0.3006801
40,1.30761,0.793631,0.621922,0.324308
40,1.30762,0.630905,0.680579,0.34058
40,1.30762,0.501541,0.742596,0.348488
40,1.307613,0.397745,0.8041113,0.351022
40,1.30761,0.3161931,0.8611601,0.345072
40,1.30762,0.251222,0.912761,0.333935
40,1.30764,0.199339,0.957905,0.320683
40,1.30766,0.158607,0.99749,0.307546
40,1.30767,0.125939,1.03368,0.297717
40,1.30768,0.10007,1.06629,0.290114

File: Cell_8_GEIS.csv
SOC [%],Voltage [V],Frequency [Hz],Re(Ztot) [Ohm],-Im(Ztot) [Ohm]
100,1.60516,100003.71,0.104897,-0.115871
100,1.60515,25116.91,0.111043,-0.00698673
100,1.60514,6307.73,0.13407,0.0413304
100,1.60513,1585.51,0.15994,0.10686
100,1.60511,398.089,0.19502,0.363109
100,1.60511,100.032,0.352844,1.32843
100,1.6049,25.1044,1.78268,4.38785
100,1.604,6.31058,8.66064,6.53771
100,1.60364,1.58533,11.93759,2.80533
100,1.60374,0.397745,12.0243,1.79509
100,1.60447,0.10007,12.1992,2.61735
100,1.606,31621.139,0.1105671,-0.0200304
100,1.60581,7943.999,0.132816,0.036097
100,1.605734,1995.64,0.155607,0.0939771
100,1.6057,501.444,0.187356,0.296568
100,1.60569,125.846,0.319953,1.07169
100,1.60557,31.6296,1.59685,3.54964
100,1.60501,7.93953,7.31415,5.15778
100,1.60466,1.99553,10.61378,2.48766
100,1.6046,0.501541,11.20317,1.67755
100,1.60508,0.125939,11.6333,2.34536
90,1.46503,39814.059,0.118211,-0.0465413
90,1.46503,10002.226,0.117444,-0.00612502
90,1.46503,2510.8,0.129129,0.0103136
90,1.46503,631.01,0.138856,0.0161826
90,1.46503,158.428,0.156717,0.0366892
90,1.46504,39.8089,0.192409,0.0701788
90,1.46504,10.0032,0.279365,0.132176
90,1.46504,2.51367,0.424042,0.156756
90,1.46506,0.630905,0.542778,0.156072
90,1.46513,0.158607,0.646275,0.180512
90,1.46506,50122.477,0.116211,-0.06114218
90,1.46511,12590.93,0.119296,-0.00950703
90,1.46512,3161.01,0.127972,0.00847559
90,1.46514,794.238,0.136296,0.01891214
90,1.46514,199.553,0.153211,0.0286193
90,1.46516,50.1444,0.183631,0.0642057
90,1.46517,12.6008,0.254388,0.123324
90,1.46517,3.16296,0.4039152,0.158156
90,1.4652,0.793631,0.531335,0.15652
90,1.46528,0.199339,0.630775,0.174516
80,1.42657,63093.824,0.108195,-0.0717924
80,1.42658,15847.683,0.108935,-0.0114717
80,1.42657,3981.27,0.113369,0.00387843
80,1.42658,1000.32,0.117594,0.012871
80,1.42659,251.044,0.134029,0.0174398
80,1.42658,63.0823,0.154109,0.0353746
80,1.4266,15.8576,0.188646,0.0716152
80,1.4266,3.97785,0.28656,0.137291
80,1.42662,1.00006,0.4321492,0.156967
80,1.42669,0.251222,0.545632,0.16351
80,1.42659,79433.273,0.114042,-0.0988696
80,1.4267,19948.785,0.10715,-0.0198671
80,1.42673,5011.604,0.111058,0.000953742
80,1.42676,1258.79,0.1206318,0.0109618
80,1.42677,316.316,0.131843,0.01879357
80,1.42678,79.4155,0.153438,0.03371574
80,1.42679,19.9553,0.182563,0.0628248
80,1.4268,5.00801,0.26335,0.130503
80,1.42683,1.25967,0.411117,0.159617
80,1.4269,0.3161931,0.531296,0.162022
70,1.39042,100003.71,0.113092,-0.124011
70,1.39043,25116.91,0.109865,-0.0239427
70,1.39042,6307.73,0.114626,0.000938409
70,1.39043,1585.51,0.12144,0.0109767
70,1.39043,398.089,0.132494,0.01674
70,1.39044,100.032,0.154163,0.0295327
70,1.39044,25.1044,0.178526,0.0507048
70,1.39045,6.31058,0.2332927,0.108376
70,1.39046,1.58533,0.373136,0.174826
70,1.3905,0.397745,0.530517,0.1794
70,1.39065,0.10007,0.656866,0.197754
70,1.39058,31621.139,0.1082187,-0.0355696
70,1.39061,7943.999,0.1138911,0.00118119
70,1.39061,1995.64,0.120566,0.00785119
70,1.39063,501.444,0.13064,0.0181428
70,1.39064,125.846,0.15028,0.0254066
70,1.39065,31.6296,0.17237,0.0444687
70,1.39065,7.93953,0.219436,0.096329
70,1.39067,1.99553,0.344923,0.1696
70,1.39071,0.501541,0.512204,0.183377
70,1.39082,0.125939,0.63916,0.1952609
60,1.35893,39814.059,0.110233,-0.0424446
60,1.35893,10002.226,0.114403,-0.00235262
60,1.35893,2510.8,0.126271,0.0106416
60,1.35892,631.01,0.135953,0.01671811
60,1.35893,158.428,0.160094,0.0239651
60,1.35893,39.8089,0.179828,0.04570647
60,1.35893,10.0032,0.225535,0.0836891
60,1.35894,2.51367,0.324323,0.1696822
60,1.35897,0.630905,0.519316,0.212232
60,1.35906,0.158607,0.682791,0.211439
60,1.35909,50122.477,0.112509,-0.0580132
60,1.35912,12590.93,0.113936,-0.00826082
60,1.35912,3161.01,0.125028,0.00982806
60,1.35913,794.238,0.134879,0.0143465
60,1.35913,199.553,0.151994,0.0237914
60,1.35914,50.1444,0.175953,0.0396519
60,1.35915,12.6008,0.213049,0.07452219
60,1.35914,3.16296,0.299449,0.153205
60,1.35917,0.793631,0.489458,0.213057
60,1.35924,0.199339,0.660102,0.21076
50,1.33352,63093.824,0.120218,-0.074851
50,1.33353,15847.683,0.124949,-0.00978423
50,1.33352,3981.27,0.136678,0.0102822
50,1.33353,1000.32,0.148857,0.018494
50,1.33353,251.044,0.170293,0.0252655
50,1.333537,63.0823,0.19624,0.042923
50,1.33354,15.8576,0.239811,0.0733562
50,1.33355,3.97785,0.309838,0.145373
50,1.33357,1.00006,0.499864,0.274122
50,1.33362,0.251222,0.777743,0.289612
50,1.33408,79433.273,0.126444,-0.102364
50,1.33392,19948.785,0.124035,-0.0173203
50,1.33387,5011.604,0.132566,0.00495296
50,1.33385,1258.79,0.150363,0.0203475
50,1.33384,316.316,0.168265,0.026809
50,1.33384,79.4155,0.193874,0.0417126
50,1.33384,19.9553,0.234604,0.0649049
50,1.33384,5.00801,0.294334,0.131624
50,1.333851,1.25967,0.456995,0.254768
50,1.33388,0.3161931,0.738662,0.292089
40,1.30844,100003.71,0.147686,-0.130816
40,1.30847,25116.91,0.142428,-0.0237696
40,1.30846,6307.73,0.150799,0.0113867
40,1.30847,1585.51,0.17278,0.0244737
40,1.30846,398.089,0.195678,0.0329728
40,1.308475,100.032,0.229584,0.0461881
40,1.30848,25.1044,0.271144,0.0630316
40,1.30848,6.31058,0.328847,0.120008
40,1.308506,1.58533,0.454149,0.250607
40,1.30857,0.397745,0.782291,0.379729
40,1.30874,0.10007,1.09161,0.337793
40,1.3086,31621.139,0.145056,-0.0311037
40,1.30867,7943.999,0.149676,0.00631235
40,1.30869,1995.64,0.167519,0.0246711
40,1.3087,501.444,0.190853,0.0340861
40,1.30872,125.846,0.224323,0.0434333
40,1.30873,31.6296,0.263609,0.0611259
40,1.30874,7.93953,0.3184897,0.1078791
40,1.308766,1.99553,0.424413,0.223505
40,1.30881,0.501541,0.718632,0.37614
40,1.30896,0.125939,1.05549,0.352026
30,1.2719,39814.059,0.185759,-0.0438932
30,1.2719,10002.226,0.197083,0.002828323
30,1.27189,2510.8,0.2170787,0.0298952
30,1.27189,631.01,0.2469126,0.0364379
30,1.27189,158.428,0.286288,0.0474307
30,1.2719,39.8089,0.317087,0.0633844
30,1.27192,10.0032,0.373027,0.0999986
30,1.27191,2.51367,0.464286,0.199825
30,1.27193,0.630905,0.708012,0.416095
30,1.27203,0.158607,1.1868,0.472539
30,1.27239,50122.477,0.1849941,-0.0558903
30,1.27228,12590.93,0.189039,-0.000349981
30,1.27224,3161.01,0.205912,0.0237318
30,1.27223,794.238,0.238545,0.0341312
30,1.27222,199.553,0.269908,0.0416588
30,1.27221,50.1444,0.30875,0.0573828
30,1.27221,12.6008,0.359077,0.0891849
30,1.27221,3.16296,0.443862,0.175505
30,1.27222,0.793631,0.644645,0.373989
30,1.2723,0.199339,1.1119,0.485321
20,1.21677,63093.824,0.269569,-0.0724083
20,1.216785,15847.683,0.27877,-0.002405735
20,1.21678,3981.27,0.302418,0.0160679
20,1.21679,1000.32,0.321894,0.0264329
20,1.21679,251.044,0.344478,0.0318286
20,1.21679,63.0823,0.376026,0.0540585
20,1.21682,15.8576,0.42821,0.0948592
20,1.21682,3.97785,0.511529,0.168104
20,1.21683,1.00006,0.656788,0.369379
20,1.21694,0.251222,1.12566,0.819412
20,1.2168,79433.273,0.268857,-0.0992734
20,1.21714,19948.785,0.2780281,-0.0103376
20,1.21715,5011.604,0.298828,0.0159842
20,1.21715,1258.79,0.318161,0.0218247
20,1.21715,316.316,0.3365944,0.0304493
20,1.21715,79.4155,0.369047,0.0508301
20,1.21716,19.9553,0.418427,0.0835786
20,1.21715,5.00801,0.497725,0.153331
20,1.21719,1.25967,0.621556,0.319648
20,1.217223,0.3161931,1.00002,0.742897
10,1.14866,100003.71,0.453506,-0.128515
10,1.14868,25116.91,0.456046,-0.0122819
10,1.14868,6307.73,0.476794,0.022542
10,1.14868,1585.51,0.510147,0.0529314
10,1.1487,398.089,0.568513,0.0928796
10,1.1487,100.032,0.676259,0.130462
10,1.148708,25.1044,0.795609,0.137358
10,1.14873,6.31058,0.905659,0.174042
10,1.14874,1.58533,1.03679,0.284319
10,1.1488,0.397745,1.25724,0.678266
10,1.14892,0.10007,2.21836,1.49599
10,1.14917,31621.139,0.4590795,-0.0212285
10,1.14906,7943.999,0.47305,0.0208429
10,1.14902,1995.64,0.504492,0.0480494
10,1.14902,501.444,0.555497,0.0831205
10,1.14903,125.846,0.654993,0.1237
10,1.149035,31.6296,0.780235,0.136028
10,1.149048,7.93953,0.88865,0.1598677
10,1.14903,1.99553,1.01443,0.253912
10,1.149109,0.501541,1.20105,0.578562
10,1.14919,0.125939,1.95426,1.38001
0,0.9897539,39814.059,0.627184,-0.0244776
0,0.9897691,10002.226,0.655364,0.0342817
0,0.989772,2510.8,0.706416,0.0808367
0,0.989786,631.01,0.79184,0.146736
0,0.989809,158.428,0.950597,0.266174
0,0.989826,39.8089,1.25602,0.438562
0,0.989869,10.0032,1.71608,0.556532
0,0.989886,2.51367,2.13362,0.736853
0,0.989891,0.630905,2.701725,1.64184
0,0.990179,0.158607,4.812984,3.64473
0,0.993481,50122.477,0.627168,-0.0413822
0,0.991927,12590.93,0.657661,0.0277958
0,0.99144,3161.01,0.700099,0.0765254
0,0.9912,794.238,0.77837,0.137207
0,0.99108,199.553,0.9184401,0.243096
0,0.991017,50.1444,1.19147,0.412739
0,0.990957,12.6008,1.64164,0.542392
0,0.99086,3.16296,2.06983,0.680664
0,0.990919,0.793631,2.55881,1.40765
0,0.99087,0.199339,4.28039,3.30473
0,0.991165,0.10007,6.08595,4.27633