Folder: Electrical-Datasets-Alkaline-Batteries/GEIS

Note: README.md
# Electrical-Datasets-Alkaline-Batteries

This repository contains the impedance spectroscopy and rest-voltage interval datasets used in the analysis presented in the paper:

*“Modeling of Alkaline Batteries and Investigation of the Relationship Between Electrochemical Impedance and Raman Spectroscopy,”*  
**Journal of Energy Storage**, 2026.

The paper is co-authored by Marzio Barresi, Simone Barcellona, Cha Long, Lorenzo Codecasa, Marco Menegazzo, Rossella Yivlialin, Eugenio Gibertini, Andrea Lucotti, Gianlorenzo Bussetti, and Samuele Grillo.

---

## Dataset description

This repository provides raw experimental impedance spectroscopy and rest-voltage interval data collected according to the battery test matrix reported in the paper.

---

## Impedance spectroscopy datasets

The following CSV files contain raw experimental data obtained from galvanostatic electrochemical impedance spectroscopy (GEIS) measurements performed on individual cells:

- `Cell_1_GEIS.csv`
- `Cell_2_GEIS.csv`
- `Cell_3_GEIS.csv`
- `Cell_4_GEIS.csv`
- `Cell_5_GEIS.csv`
- `Cell_6_GEIS.csv`
- `Cell_7_GEIS.csv`
- `Cell_8_GEIS.csv`
- `Cell_9_GEIS.csv`

### Data format (GEIS)

All GEIS datasets are provided in CSV format with the following columns:

- **SOC [%]** – Battery state of charge  
- **Voltage [V]** – Measured battery voltage  
- **Frequency [Hz]** – Excitation frequency  
- **Re(Ztot) [Ohm]** – Real part of the total battery impedance (Re(Ztot))  
- **-Im(Ztot) [Ohm]** – Negative imaginary part of the total battery impedance (-Im(Ztot))

---

## Rest-voltage interval datasets

The following CSV files contain rest-voltage interval data measured on individual cells:

- `Cell_2_REST.csv`
- `Cell_3_REST.csv`
- `Cell_4_REST.csv`
- `Cell_5_REST.csv`
- `Cell_6_REST.csv`
- `Cell_7_REST.csv`
- `Cell_8_REST.csv`
- `Cell_9_REST.csv`

### Data format (REST)

All rest-voltage interval datasets are provided in CSV format with the following columns:

- **SOC [%]** – Battery state of charge  
- **Time [s]** – Time interval  
- **Voltage [V]** – Measured battery voltage  

---

## Contact

For further information or assistance, please contact:  
- marzio.barresi@polimi.it  
- simone.barcellona@polimi.it

---

## License

This dataset is licensed under the **Creative Commons Attribution 4.0 International License (CC BY 4.0)**.

File: Cell_1_GEIS.csv
SOC [%],Voltage [V],Frequency [Hz],Re(Ztot) [Ohm],-Im(Ztot) [Ohm]
100,1.60483,100003.71,0.117098,-0.091628
100,1.6048,79433.273,0.115748,-0.0674143
100,1.604797,63093.824,0.114451,-0.0491012
100,1.60479,50122.477,0.113546,-0.03306862
100,1.60479,39814.059,0.1164987,-0.0209956
100,1.60479,31621.139,0.117437,-0.0108349
100,1.60478,25116.91,0.120568,-0.000979579
100,1.60478,19948.785,0.123001,0.00713055
100,1.60477,15847.683,0.125815,0.0137984
100,1.60478,12590.93,0.128085,0.02181693
100,1.60477,10002.226,0.132604,0.0284671
100,1.60477,7943.999,0.136846,0.0359727
100,1.60476,6307.73,0.142166,0.04254403
100,1.60475,5011.604,0.144864,0.0532534
100,1.60475,3981.27,0.1531145,0.0605751
100,1.604755,3161.01,0.157235,0.0688427
100,1.60474,2510.8,0.162751,0.07983
100,1.60475,1995.64,0.166622,0.093934
100,1.60473,1585.51,0.171857,0.112634
100,1.60473,1258.79,0.178612,0.133679
100,1.60474,1000.32,0.181637,0.160021
100,1.60474,794.238,0.187737,0.193132
100,1.60473,631.01,0.19302,0.237545
100,1.60474,501.444,0.201251,0.2891224
100,1.60473,398.089,0.207974,0.357162
100,1.60473,316.316,0.220319,0.439509
100,1.60473,251.044,0.235396,0.545669
100,1.60473,199.553,0.251297,0.674415
100,1.60471,158.428,0.278901,0.836764
100,1.60468,125.846,0.31443,1.04292
100,1.604672,100.032,0.369176,1.29053
100,1.60463,79.4155,0.449628,1.59641
100,1.60462,63.0823,0.564335,1.97132
100,1.60457,50.1444,0.735769,2.417239
100,1.6045,39.8089,0.988316,2.944468
100,1.60429,31.6296,1.34939,3.5479
100,1.60406,25.1044,1.880208,4.19967
100,1.60363,19.9553,2.610106,4.84475
100,1.60314,15.8576,3.57085,5.36776
100,1.60257,12.6008,4.712913,5.64738
100,1.60201,10.0032,5.90897,5.62236
100,1.60161,7.93953,7.00324,5.28793
100,1.60127,6.31058,7.89605,4.77374
100,1.60108,5.00801,8.56418,4.17347
100,1.60095,3.97785,9.045434,3.59174
100,1.600839,3.16296,9.35032,3.06105
100,1.60079,2.51367,9.54269,2.61643
100,1.60086,1.99553,9.65513,2.26243
100,1.60106,1.58533,9.69643,1.9945
100,1.6011,1.25967,9.67301,1.79084
100,1.60148,1.00006,9.60638,1.6624
100,1.60186,0.793631,9.48925,1.58442
100,1.60222,0.630905,9.29855,1.54394
100,1.603,0.501541,9.09305,1.53779
100,1.603822,0.397745,8.8802,1.56563
100,1.60449,0.3161931,8.66055,1.59402
100,1.60506,0.251222,8.4181,1.62184
100,1.60567,0.199339,8.16535,1.63976
100,1.60634,0.158607,7.92314,1.660681
100,1.60689,0.125939,7.65734,1.68859
100,1.60723,0.10007,7.32013,1.69984
100,1.60427,100003.71,0.113506,-0.0899737
100,1.6048,79433.273,0.111103,-0.067979
100,1.60487,63093.824,0.115689,-0.0491931
100,1.60494,50122.477,0.115813,-0.0329139
100,1.605,39814.059,0.1159054,-0.0188767
100,1.60506,31621.139,0.120028,-0.00824065
100,1.60511,25116.91,0.122174,0.0006184947
100,1.60515,19948.785,0.124846,0.00784512
100,1.60518,15847.683,0.126904,0.0166607
100,1.60522,12590.93,0.130568,0.0237349
100,1.60525,10002.226,0.134389,0.0287208
100,1.60528,7943.999,0.138875,0.0368893
100,1.6053,6307.73,0.143266,0.0444635
100,1.60532,5011.604,0.148122,0.0528507
100,1.605341,3981.27,0.1552106,0.0618763
100,1.60537,3161.01,0.159959,0.0700297
100,1.60539,2510.8,0.1654278,0.0834527
100,1.60541,1995.64,0.169708,0.0965115
100,1.60543,1585.51,0.17475,0.113323
100,1.60545,1258.79,0.179869,0.135821
100,1.605459,1000.32,0.186878,0.162634
100,1.60547,794.238,0.192506,0.1973408
100,1.605486,631.01,0.199961,0.239886
100,1.605498,501.444,0.209077,0.290535
100,1.60552,398.089,0.220021,0.358386
100,1.60552,316.316,0.235057,0.441373
100,1.60554,251.044,0.255805,0.545014
100,1.60555,199.553,0.283979,0.673721
100,1.60555,158.428,0.326323,0.831711
100,1.60555,125.846,0.390979,1.02831
100,1.60556,100.032,0.485849,1.25993
100,1.60556,79.4155,0.625003,1.53562
100,1.60553,63.0823,0.824416,1.84831
100,1.6055,50.1444,1.10762,2.18573
100,1.60545,39.8089,1.48864,2.52588
100,1.605427,31.6296,1.9793,2.82154
100,1.60538,25.1044,2.561595,3.02834
100,1.60535,19.9553,3.18609,3.10624
100,1.60534,15.8576,3.798615,3.05698
100,1.60534,12.6008,4.34993,2.9084
100,1.60535,10.0032,4.82177,2.7025
100,1.6054,7.93953,5.214,2.47343
100,1.60545,6.31058,5.53163,2.25375
100,1.60552,5.00801,5.79449,2.04624
100,1.60568,3.97785,6.01497,1.8625
100,1.60581,3.16296,6.19913,1.70331
100,1.60595,2.51367,6.353745,1.567391
100,1.606076,1.99553,6.48391,1.45325
100,1.60611,1.58533,6.5763,1.36179
100,1.60632,1.25967,6.64905,1.2877
100,1.60635,1.00006,6.70004,1.23992
100,1.606542,0.793631,6.73184,1.20913
100,1.60675,0.630905,6.745934,1.19901
100,1.60678,0.501541,6.77094,1.21448
100,1.60688,0.397745,6.77651,1.23882
100,1.6071,0.3161931,6.78673,1.28033
100,1.60731,0.251222,6.78951,1.33256
100,1.60742,0.199339,6.79572,1.38877
100,1.60742,0.158607,6.78156,1.44469
100,1.60741,0.125939,6.71417,1.48444
100,1.60747,0.10007,6.61692,1.51006

File: Cell_2_GEIS.csv
SOC [%],Voltage [V],Frequency [Hz],Re(Ztot) [Ohm],-Im(Ztot) [Ohm]
70,1.3891,100003.71,0.12157,-0.0966707
70,1.38911,79433.273,0.116879,-0.0763151
70,1.38911,63093.824,0.116619,-0.0582808
70,1.3891,50122.477,0.115332,-0.0457313
70,1.38911,39814.059,0.115613,-0.0339663
70,1.38911,31621.139,0.117201,-0.0234374
70,1.38911,25116.91,0.119571,-0.0188838
70,1.38911,19948.785,0.117252,-0.0138953
70,1.3891,15847.683,0.119168,-0.00874752
70,1.38911,12590.93,0.120571,-0.00602917
70,1.3891,10002.226,0.119311,-0.000693168
70,1.38912,7943.999,0.122352,0.001895297
70,1.3891,6307.73,0.12271,0.0044025
70,1.3891,5011.604,0.124832,0.00697513
70,1.38911,3981.27,0.126637,0.00734309
70,1.3891,3161.01,0.129649,0.00912571
70,1.3891,2510.8,0.128715,0.0112018
70,1.389105,1995.64,0.130854,0.01086
70,1.38911,1585.51,0.133426,0.0123219
70,1.3891,1258.79,0.133317,0.0139767
70,1.3891,1000.32,0.138507,0.0131965
70,1.38911,794.238,0.140182,0.0148306
70,1.3891,631.01,0.142507,0.0180908
70,1.3891,501.444,0.14519,0.017187
70,1.3891,398.089,0.148282,0.02043278
70,1.38911,316.316,0.149467,0.0211235
70,1.38911,251.044,0.152278,0.0234084
70,1.38911,199.553,0.155757,0.0240859
70,1.38911,158.428,0.160259,0.02612553
70,1.38911,125.846,0.163131,0.0282218
70,1.38911,100.032,0.165505,0.0313436
70,1.38911,79.4155,0.169039,0.0334426
70,1.38911,63.0823,0.174985,0.0363172
70,1.38912,50.1444,0.1796581,0.0407776
70,1.38911,39.8089,0.182146,0.0447003
70,1.38911,31.6296,0.186402,0.0487234
70,1.38911,25.1044,0.1921487,0.0551307
70,1.38911,19.9553,0.200203,0.0614557
70,1.38911,15.8576,0.204804,0.06737
70,1.38911,12.6008,0.213973,0.0773542
70,1.38912,10.0032,0.223088,0.0883464
70,1.38911,7.93953,0.235137,0.100596
70,1.389118,6.31058,0.248966,0.113973
70,1.38912,5.00801,0.265144,0.129048
70,1.38912,3.97785,0.284929,0.143298
70,1.38911,3.16296,0.308802,0.157241
70,1.38911,2.51367,0.33583,0.169799
70,1.38911,1.99553,0.364892,0.180372
70,1.38913,1.58533,0.395861,0.185947
70,1.38911,1.25967,0.427339,0.188391
70,1.38913,1.00006,0.456335,0.187334
70,1.38912,0.793631,0.485241,0.185365
70,1.38912,0.630905,0.509562,0.181417
70,1.38914,0.501541,0.530941,0.175814
70,1.38916,0.397745,0.550767,0.171152
70,1.38916,0.3161931,0.56963,0.169213
70,1.38916,0.251222,0.586246,0.167278
70,1.38917,0.199339,0.601725,0.1664433
70,1.3892,0.158607,0.615484,0.16615
70,1.38924,0.125939,0.62887,0.167434
70,1.38927,0.10007,0.643072,0.170275
70,1.389416,100003.71,0.120359,-0.0964037
70,1.38937,79433.273,0.118223,-0.0764714
70,1.389361,63093.824,0.115787,-0.05874934
70,1.38936,50122.477,0.114736,-0.0453121
70,1.38936,39814.059,0.116948,-0.035219
70,1.38936,31621.139,0.119183,-0.0226997
70,1.38935,25116.91,0.116494,-0.0187097
70,1.38935,19948.785,0.119014,-0.01270717
70,1.38936,15847.683,0.118698,-0.00869083
70,1.389347,12590.93,0.119766,-0.003925174
70,1.38935,10002.226,0.120772,-0.000899524
70,1.38935,7943.999,0.1224663,0.0004821968
70,1.38935,6307.73,0.124017,0.002937132
70,1.38934,5011.604,0.1238023,0.00611887
70,1.38934,3981.27,0.127559,0.0076575
70,1.38934,3161.01,0.127838,0.00934505
70,1.38934,2510.8,0.128789,0.00997377
70,1.38934,1995.64,0.131954,0.0125528
70,1.38933,1585.51,0.133814,0.01231676
70,1.38933,1258.79,0.135564,0.01303
70,1.38934,1000.32,0.136504,0.0146744
70,1.38933,794.238,0.139219,0.0163259
70,1.38933,631.01,0.141496,0.0150848
70,1.38933,501.444,0.144953,0.018892
70,1.38933,398.089,0.14798,0.0197267
70,1.38933,316.316,0.1506124,0.0219335
70,1.38933,251.044,0.153954,0.0223461
70,1.38933,199.553,0.156472,0.0237579
70,1.38933,158.428,0.160448,0.0265174
70,1.38933,125.846,0.161797,0.0275538
70,1.38933,100.032,0.165069,0.0304964
70,1.389329,79.4155,0.168996,0.0343025
70,1.38933,63.0823,0.174636,0.0358713
70,1.38933,50.1444,0.17918,0.04082356
70,1.38932,39.8089,0.182863,0.0452665
70,1.38932,31.6296,0.188143,0.049113
70,1.389328,25.1044,0.193265,0.0528951
70,1.38932,19.9553,0.199682,0.0601922
70,1.38933,15.8576,0.205306,0.0688171
70,1.38933,12.6008,0.213875,0.078152
70,1.38932,10.0032,0.223352,0.0884628
70,1.38932,7.93953,0.235447,0.100511
70,1.38933,6.31058,0.249725,0.113608
70,1.38933,5.00801,0.2666015,0.128306
70,1.38933,3.97785,0.2865566,0.142361
70,1.38933,3.16296,0.310784,0.155682
70,1.38934,2.51367,0.337675,0.1667514
70,1.38934,1.99553,0.366945,0.175375
70,1.38933,1.58533,0.398002,0.180476
70,1.38934,1.25967,0.427553,0.1819057
70,1.38933,1.00006,0.456759,0.180581
70,1.38933,0.793631,0.483285,0.178655
70,1.38935,0.630905,0.506897,0.172871
70,1.38935,0.501541,0.529496,0.170019
70,1.38934,0.397745,0.549793,0.16816
70,1.38935,0.3161931,0.568177,0.165772
70,1.38937,0.251222,0.58369,0.163432
70,1.38939,0.199339,0.598433,0.162718
70,1.3894,0.158607,0.614361,0.164833
70,1.38941,0.125939,0.630329,0.16853
70,1.38942,0.10007,0.645479,0.172233

File: Cell_6_GEIS.csv
SOC [%],Voltage [V],Frequency [Hz],Re(Ztot) [Ohm],-Im(Ztot) [Ohm]
30,1.26717,100003.71,0.2039742,-0.14759
30,1.267166,79433.273,0.203198,-0.115859
30,1.26717,63093.824,0.200227,-0.0894451
30,1.26717,50122.477,0.20004,-0.0670473
30,1.26717,39814.059,0.200662,-0.048526
30,1.26717,31621.139,0.202932,-0.0370108
30,1.26718,25116.91,0.203175,-0.0248447
30,1.26717,19948.785,0.2031787,-0.0180943
30,1.26717,15847.683,0.206632,-0.00891263
30,1.267172,12590.93,0.2084631,-0.00261749
30,1.26717,10002.226,0.211448,0.00349699
30,1.26718,7943.999,0.2131442,0.00745366
30,1.26717,6307.73,0.216839,0.0140128
30,1.26716,5011.604,0.219564,0.0162713
30,1.26717,3981.27,0.2257645,0.0207321
30,1.26717,3161.01,0.228626,0.02215641
30,1.26717,2510.8,0.232367,0.0250888
30,1.26717,1995.64,0.2371,0.0267737
30,1.26717,1585.51,0.243286,0.028511
30,1.26716,1258.79,0.248057,0.0307834
30,1.26716,1000.32,0.253382,0.0331926
30,1.26717,794.238,0.256023,0.0338852
30,1.26717,631.01,0.262127,0.0353635
30,1.26717,501.444,0.26687,0.0368432
30,1.26717,398.089,0.272645,0.0359988
30,1.26717,316.316,0.276937,0.0363096
30,1.26717,251.044,0.283067,0.0390449
30,1.26717,199.553,0.288178,0.0413808
30,1.26717,158.428,0.293556,0.0431535
30,1.26717,125.846,0.298332,0.0444899
30,1.26718,100.032,0.304083,0.0478959
30,1.26717,79.4155,0.310307,0.0507867
30,1.26717,63.0823,0.31816,0.0549188
30,1.26717,50.1444,0.3246828,0.0573449
30,1.26718,39.8089,0.3319644,0.0633527
30,1.26717,31.6296,0.339984,0.0665978
30,1.26717,25.1044,0.3491537,0.0734848
30,1.26718,19.9553,0.358579,0.0787027
30,1.267168,15.8576,0.367347,0.08552286
30,1.26718,12.6008,0.376566,0.0954058
30,1.26719,10.0032,0.3887881,0.104017
30,1.26717,7.93953,0.401481,0.115686
30,1.26719,6.31058,0.414838,0.127392
30,1.2672,5.00801,0.428961,0.142796
30,1.26718,3.97785,0.443866,0.160552
30,1.2672,3.16296,0.46096,0.180648
30,1.2672,2.51367,0.481268,0.205971
30,1.26718,1.99553,0.504493,0.235549
30,1.26719,1.58533,0.533336,0.270437
30,1.26719,1.25967,0.569341,0.309164
30,1.2672,1.00006,0.612936,0.351206
30,1.26719,0.793631,0.668397,0.3955985
30,1.26721,0.630905,0.736458,0.43621
30,1.26723,0.501541,0.815443,0.468785
30,1.26723,0.397745,0.903625,0.492426
30,1.26723,0.3161931,0.993271,0.50042
30,1.26725,0.251222,1.0812,0.494316
30,1.26729,0.199339,1.16139,0.478175
30,1.26732,0.158607,1.23038,0.456617
30,1.26734,0.125939,1.29207,0.43516
30,1.26736,0.10007,1.34557,0.415961
30,1.26791,100003.71,0.2043712,-0.148712
30,1.26775,79433.273,0.200285,-0.113543
30,1.26775,63093.824,0.198982,-0.0894112
30,1.26773,50122.477,0.198444,-0.0679243
30,1.267705,39814.059,0.2007,-0.0497194
30,1.2677,31621.139,0.201783,-0.0348809
30,1.267682,25116.91,0.202477,-0.02639313
30,1.26767,19948.785,0.2047459,-0.0163545
30,1.26767,15847.683,0.207009,-0.0105549
30,1.26766,12590.93,0.207967,-0.002480706
30,1.26765,10002.226,0.211273,0.004407227
30,1.26764,7943.999,0.2120918,0.00874233
30,1.26762,6307.73,0.217394,0.0121166
30,1.26762,5011.604,0.219795,0.0181394
30,1.26761,3981.27,0.224679,0.0182717
30,1.2676,3161.01,0.228259,0.0222082
30,1.2676,2510.8,0.233576,0.025018
30,1.2676,1995.64,0.235825,0.0275158
30,1.2676,1585.51,0.238899,0.0295411
30,1.26759,1258.79,0.245006,0.0306446
30,1.26758,1000.32,0.25032,0.031113
30,1.26758,794.238,0.256982,0.0329578
30,1.26757,631.01,0.262021,0.0341668
30,1.26757,501.444,0.266204,0.0351672
30,1.26757,398.089,0.272271,0.038397
30,1.26757,316.316,0.275977,0.036902
30,1.26756,251.044,0.282473,0.0385965
30,1.26756,199.553,0.28605,0.0414197
30,1.26756,158.428,0.293223,0.0429629
30,1.26756,125.846,0.299536,0.04466464
30,1.26754,100.032,0.304629,0.0489619
30,1.26755,79.4155,0.311934,0.0502039
30,1.26754,63.0823,0.316601,0.0529121
30,1.267543,50.1444,0.32379,0.057903
30,1.26754,39.8089,0.331626,0.0608145
30,1.26755,31.6296,0.339981,0.067068
30,1.26754,25.1044,0.3494736,0.0726193
30,1.26754,19.9553,0.357538,0.079781
30,1.26754,15.8576,0.367187,0.0857987
30,1.26753,12.6008,0.379663,0.0950001
30,1.26752,10.0032,0.388377,0.104103
30,1.26754,7.93953,0.402042,0.115162
30,1.267517,6.31058,0.414513,0.127358
30,1.26751,5.00801,0.429185,0.142016
30,1.26753,3.97785,0.443281,0.160859
30,1.26752,3.16296,0.462452,0.180753
30,1.26752,2.51367,0.481868,0.206345
30,1.26753,1.99553,0.505862,0.235918
30,1.26752,1.58533,0.536274,0.26973
30,1.26753,1.25967,0.571947,0.3083533
30,1.26751,1.00006,0.618239,0.350022
30,1.26753,0.793631,0.674223,0.391967
30,1.26752,0.630905,0.7434715,0.431026
30,1.26751,0.501541,0.821449,0.46359
30,1.26751,0.397745,0.908494,0.4846
30,1.267531,0.3161931,0.996517,0.491514
30,1.26753,0.251222,1.082579,0.487425
30,1.26752,0.199339,1.16214,0.475978
30,1.267511,0.158607,1.23144,0.4573836
30,1.26752,0.125939,1.29305,0.436219
30,1.26756,0.10007,1.34644,0.415893

File: Cell_7_GEIS.csv
SOC [%],Voltage [V],Frequency [Hz],Re(Ztot) [Ohm],-Im(Ztot) [Ohm]
100,1.60894,100003.71,0.173501,-0.0514607
100,1.60892,25116.91,0.179732,0.00860015
100,1.60891,6307.73,0.202161,0.0466483
100,1.6089,1585.51,0.233709,0.114799
100,1.60888,398.089,0.268146,0.367156
100,1.60891,100.032,0.380861,1.34422
100,1.60893,25.1044,1.39516,4.87334
100,1.60829,6.31058,9.513855,11.3358
100,1.60757,1.58469,20.14848,6.87891
100,1.60799,0.397745,21.0022,3.31961
100,1.60839,0.09990409,20.4515,3.62055
100,1.6052,31621.139,0.179882,0.00276095
100,1.60538,7943.999,0.199763,0.0403108
100,1.60558,1995.64,0.230657,0.0968189
100,1.60576,501.444,0.265792,0.296367
100,1.60593,125.846,0.387925,1.06734
100,1.606143,31.6296,1.57447,3.57959
100,1.60633,7.93953,7.1242,5.60966
100,1.6065,1.99706,11.2931,3.413827
100,1.60707,0.501187,12.8095,1.96446
100,1.60828,0.125907,14.1035,1.97186
90,1.4832,39814.059,0.157714,-0.0209921
90,1.4832,10002.226,0.160384,0.000490572
90,1.4832,2510.8,0.168294,0.00960109
90,1.4832,631.01,0.178528,0.016403
90,1.4832,158.428,0.192415,0.0287533
90,1.4832,39.8089,0.214426,0.0649998
90,1.4832,10.0032,0.279014,0.1739907
90,1.4832,2.51367,0.527441,0.332772
90,1.4832,0.630905,0.842129,0.320908
90,1.4832,0.158607,1.02481,0.303838
90,1.48322,50122.477,0.158313,-0.0276233
90,1.48324,12590.93,0.159732,-0.0014755
90,1.48324,3161.01,0.166908,0.00869861
90,1.48324,794.238,0.176771,0.0151982
90,1.48324,199.553,0.189663,0.0261813
90,1.48324,50.1444,0.209353,0.0562955
90,1.48324,12.6008,0.261169,0.148423
90,1.48323,3.16296,0.472193,0.313062
90,1.48323,0.793631,0.802746,0.328636
90,1.48322,0.199339,1.0053,0.303659
80,1.42232,63093.824,0.163702,-0.03448045
80,1.42232,15847.683,0.165285,-0.00286085
80,1.42232,3981.27,0.172513,0.00769865
80,1.42232,1000.32,0.182037,0.0143499
80,1.42233,251.044,0.195832,0.0212445
80,1.42233,63.0823,0.2142956,0.03605736
80,1.42234,15.8576,0.246048,0.0760915
80,1.42234,3.97785,0.342709,0.158793
80,1.42236,1.00006,0.523403,0.1960359
80,1.42243,0.251222,0.666724,0.19346
80,1.42232,79433.273,0.164213,-0.0447452
80,1.42244,19948.785,0.16446,-0.00665691
80,1.42248,5011.604,0.170503,0.006455234
80,1.4225,1258.79,0.18064,0.0130132
80,1.42251,316.316,0.193297,0.0198429
80,1.42252,79.4155,0.210355,0.0323955
80,1.42253,19.9553,0.237867,0.0667337
80,1.42255,5.00801,0.318705,0.145335
80,1.42256,1.25967,0.4958007,0.197071
80,1.42262,0.3161931,0.650834,0.195253
70,1.3874,100003.71,0.160258,-0.0563417
70,1.38741,25116.91,0.159795,-0.00915393
70,1.38741,6307.73,0.166286,0.006127103
70,1.38742,1585.51,0.176143,0.0125737
70,1.38742,398.089,0.188712,0.0187679
70,1.38743,100.032,0.206767,0.0288111
70,1.38743,25.1044,0.231311,0.0515533
70,1.38744,6.31058,0.282805,0.113456
70,1.38745,1.58533,0.4333601,0.196142
70,1.38749,0.397745,0.6169951,0.201941
70,1.38765,0.10007,0.75105,0.211606
70,1.38781,31621.139,0.158499,-0.0132805
70,1.38778,7943.999,0.16419,0.00412743
70,1.38776,1995.64,0.173406,0.0118117
70,1.38775,501.444,0.186169,0.01763312
70,1.38774,125.846,0.203021,0.0265188
70,1.38774,31.6296,0.225291,0.0453834
70,1.38774,7.93953,0.269423,0.0995179
70,1.38774,1.99553,0.401589,0.185944
70,1.38776,0.501541,0.591257,0.200662
70,1.38786,0.125939,0.731168,0.206971
60,1.35446,39814.059,0.1678312,-0.0172765
60,1.35446,10002.226,0.17433,0.00484332
60,1.35446,2510.8,0.1859792,0.0133403
60,1.35447,631.01,0.200445,0.0203993
60,1.35447,158.428,0.2193408,0.0290681
60,1.35447,39.8089,0.2464814,0.0458874
60,1.35448,10.0032,0.286273,0.08730494
60,1.35449,2.51367,0.383771,0.187909
60,1.35452,0.630905,0.619729,0.265925
60,1.3546,0.158607,0.827775,0.249346
60,1.35457,50122.477,0.167281,-0.0245513
60,1.35463,12590.93,0.173105,0.00258828
60,1.35465,3161.01,0.1836959,0.012602
60,1.35466,794.238,0.1977,0.0184901
60,1.35467,199.553,0.215824,0.0272697
60,1.35468,50.1444,0.2412308,0.04192163
60,1.35469,12.6008,0.277546,0.0765516
60,1.3547,3.16296,0.357933,0.167232
60,1.35472,0.793631,0.577963,0.264787
60,1.3548,0.199339,0.801539,0.252665
50,1.33282,63093.824,0.1758458,-0.0316291
50,1.33282,15847.683,0.180604,0.00195011
50,1.33282,3981.27,0.193353,0.0151337
50,1.33283,1000.32,0.210986,0.0225298
50,1.33283,251.044,0.232455,0.0298617
50,1.33284,63.0823,0.2597532,0.043324
50,1.33284,15.8576,0.299411,0.07215695
50,1.33284,3.97785,0.3643711,0.147012
50,1.33286,1.00006,0.555452,0.288645
50,1.33293,0.251222,0.859956,0.308656
50,1.33278,79433.273,0.175629,-0.0418498
50,1.33294,19948.785,0.178961,-0.00150088
50,1.33298,5011.604,0.190756,0.0138641
50,1.33301,1258.79,0.207695,0.0218385
50,1.333021,316.316,0.228646,0.0277724
50,1.33303,79.4155,0.25433,0.0407378
50,1.33304,19.9553,0.291669,0.0647479
50,1.33306,5.00801,0.348861,0.128545
50,1.33307,1.25967,0.508561,0.267598
50,1.33313,0.3161931,0.8180782,0.319713
40,1.30799,100003.71,0.2062065,-0.0545764
40,1.308,25116.91,0.209017,-0.004465448
40,1.308,6307.73,0.220737,0.0157025
40,1.30801,1585.51,0.241539,0.02602657
40,1.30801,398.089,0.269299,0.0334346
40,1.308019,100.032,0.299266,0.0432287
40,1.30802,25.1044,0.338597,0.0651574
40,1.30803,6.31058,0.395084,0.115
40,1.30804,1.58533,0.513544,0.2522551
40,1.30809,0.397745,0.852669,0.398005
40,1.30826,0.10007,1.18074,0.34916
40,1.30834,31621.139,0.208219,-0.00910852
40,1.30832,7943.999,0.2187797,0.0131411
40,1.30831,1995.64,0.237958,0.0253494
40,1.30831,501.444,0.264626,0.03284083
40,1.30831,125.846,0.294423,0.0412863
40,1.30832,31.6296,0.332208,0.0597362
40,1.30832,7.93953,0.3843383,0.103189
40,1.30833,1.99553,0.4832644,0.2217078
40,1.30835,0.501541,0.7844503,0.391204
40,1.30846,0.125939,1.14209,0.363296
30,1.27098,39814.059,0.2684332,-0.0124999
30,1.27099,10002.226,0.280591,0.0143828
30,1.27099,2510.8,0.30301,0.02823517
30,1.27099,631.01,0.332537,0.0342822
30,1.271,158.428,0.3626794,0.04058171
30,1.27101,39.8089,0.399696,0.0584269
30,1.271,10.0032,0.45222,0.0960997
30,1.27101,2.51367,0.534092,0.193011
30,1.27104,0.630905,0.772199,0.425799
30,1.27115,0.158607,1.28473,0.504523
30,1.27103,50122.477,0.2665172,-0.0200041
30,1.27114,12590.93,0.277438,0.0111877
30,1.27118,3161.01,0.298711,0.0260855
30,1.2712,794.238,0.327239,0.03332227
30,1.27122,199.553,0.3575422,0.0394055
30,1.27123,50.1444,0.392131,0.0539368
30,1.27124,12.6008,0.442117,0.0871781
30,1.27125,3.16296,0.515947,0.1681102
30,1.27129,0.793631,0.709368,0.382423
30,1.271379,0.199339,1.20521,0.5215209
20,1.21006,63093.824,0.387432,-0.0255797
20,1.21007,15847.683,0.4011776,0.00990653
20,1.21007,3981.27,0.421853,0.02044833
20,1.21008,1000.32,0.440421,0.0226991
20,1.21009,251.044,0.461244,0.03217264
20,1.21009,63.0823,0.491845,0.0527393
20,1.2101,15.8576,0.543444,0.0895947
20,1.21011,3.97785,0.6242623,0.161017
20,1.21012,1.00006,0.756949,0.358295
20,1.21022,0.251222,1.22757,0.803429
20,1.20951,79433.273,0.386175,-0.036741
20,1.210169,19948.785,0.397985,0.00650426
20,1.21026,5011.604,0.418683,0.019607
20,1.21031,1258.79,0.437854,0.0222154
20,1.21033,316.316,0.4568555,0.0298425
20,1.21035,79.4155,0.485056,0.0477042
20,1.21037,19.9553,0.53293,0.08101205
20,1.21037,5.00801,0.608185,0.144836
20,1.2104,1.25967,0.724844,0.3092559
20,1.2105,0.3161931,1.09965,0.728902
10,1.1427,100003.71,0.713956,-0.04434831
10,1.14271,25116.91,0.7297012,0.0145414
10,1.14271,6307.73,0.759966,0.0447707
10,1.14271,1585.51,0.809704,0.0765246
10,1.14272,398.089,0.890709,0.122014
10,1.14272,100.032,1.02967,0.165078
10,1.14273,25.1044,1.1818,0.166701
10,1.14272,6.31058,1.31342,0.19482
10,1.14275,1.58533,1.46372,0.314485
10,1.14279,0.397745,1.717581,0.732543
10,1.14284,0.10007,2.75103,1.54481
10,1.14209,31621.139,0.726144,0.007768256
10,1.14252,7943.999,0.753635,0.0401823
10,1.14267,1995.64,0.799487,0.0699038
10,1.14275,501.444,0.8732291,0.112841
10,1.14279,125.846,1.00297,0.160061
10,1.14282,31.6296,1.15929,0.166466
10,1.14284,7.93953,1.2913,0.185977
10,1.14291,1.99553,1.43692,0.283219
10,1.14293,0.501541,1.65319,0.626216
10,1.14302,0.125939,2.47186,1.44791
0,0.978497,39814.059,0.950138,0.0119855
0,0.978505,10002.226,0.98548,0.053528
0,0.978517,2510.8,1.04544,0.0980861
0,0.978528,631.01,1.14624,0.167032
0,0.9785405,158.428,1.32312,0.282492
0,0.978567,39.8089,1.6422,0.4224683
0,0.978561,10.0032,2.04916,0.507752
0,0.978457,2.51367,2.39319,0.736619
0,0.978542,0.630905,2.89219,1.872008
0,0.978639,0.158607,5.35725,4.79207
0,0.976896,50122.477,0.945207,0.00276538
0,0.978055,12590.93,0.978459,0.0470136
0,0.978506,3161.01,1.03337,0.0893169
0,0.978752,794.238,1.12521,0.152623
0,0.978898,199.553,1.28504,0.259894
0,0.978991,50.1444,1.57825,0.40202
0,0.979084,12.6008,1.9837,0.493989
0,0.979235,3.16296,2.34228,0.665313
0,0.979222,0.793631,2.76124,1.56908
0,0.9794608,0.199339,4.65323,4.23982
0,0.979312,0.10007,7.142198,5.80382