Folder: Electrical-Datasets-Alkaline-Batteries/GEIS (part 2)

File: Cell_9_GEIS.csv
SOC [%],Voltage [V],Frequency [Hz],Re(Ztot) [Ohm],-Im(Ztot) [Ohm]
100,1.60755,100003.71,0.1005744,-0.190026
100,1.60755,25116.91,0.107161,-0.027144
100,1.60754,6307.73,0.125436,0.0348583
100,1.60755,1585.51,0.153586,0.108307
100,1.60753,398.089,0.190672,0.359143
100,1.6075,100.032,0.391753,1.31398
100,1.60717,25.1044,2.35955,3.8288
100,1.60687,6.31058,6.96209,3.36196
100,1.60756,1.58533,8.171629,1.64884
100,1.60888,0.397745,8.16681,1.38112
100,1.61019,0.10007,7.32383,1.63184
100,1.60874,31621.139,0.101241,-0.04035376
100,1.60874,7943.999,0.120622,0.0258978
100,1.60868,1995.64,0.147547,0.0882602
100,1.60864,501.444,0.1841938,0.291781
100,1.608587,125.846,0.3702687,1.04505
100,1.60844,31.6296,2.01569,2.83899
100,1.60836,7.93953,5.23341,2.43663
100,1.60886,1.99553,6.557282,1.471824
100,1.60938,0.501541,6.95214,1.21599
100,1.609926,0.125939,6.77862,1.46834
90,1.46798,39814.059,0.104449,-0.075528
90,1.46798,10002.226,0.110803,-0.0138746
90,1.46797,2510.8,0.114861,0.00780198
90,1.46797,631.01,0.126741,0.0173366
90,1.46797,158.428,0.143422,0.0308516
90,1.46797,39.8089,0.176732,0.0676502
90,1.46798,10.0032,0.261711,0.119258
90,1.467978,2.51367,0.379911,0.119744
90,1.468,0.630905,0.455942,0.111805
90,1.46804,0.158607,0.521095,0.131832
90,1.46803,50122.477,0.105552,-0.0951481
90,1.468057,12590.93,0.107617,-0.01890832
90,1.46806,3161.01,0.113761,0.004578596
90,1.46807,794.238,0.124222,0.016309
90,1.46808,199.553,0.139274,0.0286955
90,1.46809,50.1444,0.1683985,0.0598454
90,1.4681,12.6008,0.242117,0.111239
90,1.4681,3.16296,0.3637712,0.1206708
90,1.46813,0.793631,0.446353,0.110101
90,1.46819,0.199339,0.512805,0.128137
80,1.42976,63093.824,0.0985968,-0.121976
80,1.42977,15847.683,0.100049,-0.0259422
80,1.42976,3981.27,0.105581,0.00173381
80,1.42976,1000.32,0.1132388,0.0108385
80,1.42977,251.044,0.12563,0.0194955
80,1.42977,63.0823,0.145573,0.0352513
80,1.42977,15.8576,0.178818,0.0692088
80,1.42978,3.97785,0.274994,0.120102
80,1.4298,1.00006,0.385406,0.119461
80,1.429846,0.251222,0.460936,0.123328
80,1.430189,79433.273,0.100223,-0.155292
80,1.43016,19948.785,0.0997865,-0.0337674
80,1.43012,5011.604,0.1030844,-0.00118007
80,1.4301,1258.79,0.112487,0.0100537
80,1.430096,316.316,0.124135,0.0190145
80,1.430087,79.4155,0.1409981,0.0304733
80,1.43009,19.9553,0.172512,0.06293004
80,1.4301,5.00801,0.255208,0.110373
80,1.430092,1.25967,0.367201,0.1137197
80,1.43011,0.3161931,0.446573,0.116469
70,1.389812,100003.71,0.111115,-0.198009
70,1.38982,25116.91,0.108241,-0.0453965
70,1.38982,6307.73,0.113109,-0.00249381
70,1.38983,1585.51,0.122172,0.0102988
70,1.38983,398.089,0.136798,0.0176091
70,1.38983,100.032,0.15281,0.027958
70,1.38984,25.1044,0.180926,0.0542203
70,1.38984,6.31058,0.23791,0.109303
70,1.38984,1.58533,0.375149,0.161069
70,1.38988,0.397745,0.503459,0.149216
70,1.39001,0.10007,0.588958,0.157278
70,1.39021,31621.139,0.107537,-0.0572572
70,1.39019,7943.999,0.109761,-0.00624435
70,1.39016,1995.64,0.119224,0.00989973
70,1.39016,501.444,0.132,0.0179491
70,1.39015,125.846,0.147424,0.0272319
70,1.39015,31.6296,0.17457,0.0475524
70,1.39015,7.93953,0.223961,0.09637969
70,1.39015,1.99553,0.3481181,0.152109
70,1.39016,0.501541,0.482957,0.143926
70,1.39022,0.125939,0.5726226,0.151648
60,1.35636,39814.059,0.109274,-0.0722152
60,1.35637,10002.226,0.116485,-0.00978259
60,1.35636,2510.8,0.126115,0.0080528
60,1.35636,631.01,0.142269,0.0173339
60,1.35637,158.428,0.158154,0.0281268
60,1.35637,39.8089,0.18431,0.045936
60,1.35637,10.0032,0.225978,0.0841758
60,1.3564,2.51367,0.3297967,0.168406
60,1.35642,0.630905,0.517129,0.191255
60,1.35651,0.158607,0.643217,0.17315
60,1.3567,50122.477,0.109208,-0.0956269
60,1.35669,12590.93,0.113563,-0.01688209
60,1.35666,3161.01,0.124546,0.00697622
60,1.35666,794.238,0.138643,0.0155375
60,1.356654,199.553,0.154774,0.0260084
60,1.356652,50.1444,0.178368,0.0412036
60,1.35666,12.6008,0.216843,0.0752779
60,1.35666,3.16296,0.305449,0.151868
60,1.35667,0.793631,0.48925,0.19078
60,1.356714,0.199339,0.62632,0.172337
50,1.333078,63093.824,0.117903,-0.120686
50,1.33308,15847.683,0.124882,-0.0212579
50,1.33307,3981.27,0.1345574,0.00869482
50,1.33308,1000.32,0.153546,0.01989512
50,1.33308,251.044,0.1745207,0.0292389
50,1.33308,63.0823,0.201167,0.0429558
50,1.33309,15.8576,0.2400517,0.073943
50,1.33309,3.97785,0.308847,0.14667
50,1.33311,1.00006,0.504141,0.266502
50,1.33317,0.251222,0.750311,0.244165
50,1.33315,79433.273,0.119891,-0.1558051
50,1.33319,19948.785,0.12226,-0.02989
50,1.33321,5011.604,0.132959,0.00543105
50,1.33323,1258.79,0.148681,0.0186787
50,1.333243,316.316,0.169408,0.0286538
50,1.33325,79.4155,0.195924,0.0390667
50,1.33327,19.9553,0.235878,0.0655602
50,1.33327,5.00801,0.293705,0.131732
50,1.3333,1.25967,0.459572,0.250238
50,1.333375,0.3161931,0.719563,0.252527
40,1.3077,100003.71,0.141449,-0.192498
40,1.30771,25116.91,0.141645,-0.0381216
40,1.30772,6307.73,0.1520499,0.00583444
40,1.3077,1585.51,0.169222,0.0248837
40,1.307704,398.089,0.1973765,0.0299541
40,1.30772,100.032,0.2256853,0.0407551
40,1.30772,25.1044,0.262262,0.0626382
40,1.30773,6.31058,0.316745,0.114866
40,1.307741,1.58533,0.442468,0.24517
40,1.30779,0.397745,0.761579,0.330772
40,1.30796,0.10007,0.997017,0.2664361
40,1.30806,31621.139,0.140177,-0.0524058
40,1.30805,7943.999,0.148226,0.00072727
40,1.30802,1995.64,0.168057,0.0205014
40,1.30802,501.444,0.192186,0.0299094
40,1.30802,125.846,0.221023,0.0385302
40,1.30802,31.6296,0.2554,0.0571855
40,1.30803,7.93953,0.306163,0.101318
40,1.30804,1.99553,0.411294,0.216618
40,1.30805,0.501541,0.705435,0.333585
40,1.30814,0.125939,0.970629,0.276743
30,1.26736,39814.059,0.203892,-0.0665823
30,1.26736,10002.226,0.217882,-0.00234607
30,1.26736,2510.8,0.2382969,0.0214467
30,1.26736,631.01,0.2638779,0.02971923
30,1.26737,158.428,0.289776,0.0366466
30,1.26737,39.8089,0.321978,0.0554972
30,1.26737,10.0032,0.373837,0.0943401
30,1.26735,2.51367,0.453465,0.192502
30,1.2674,0.630905,0.695899,0.427095
30,1.26751,0.158607,1.19607,0.464487
30,1.26747,50122.477,0.202211,-0.0904738
30,1.26753,12590.93,0.214077,-0.00695515
30,1.267542,3161.01,0.233788,0.0198273
30,1.26758,794.238,0.258829,0.0257544
30,1.26758,199.553,0.28588,0.0339516
30,1.26758,50.1444,0.316464,0.0499439
30,1.26761,12.6008,0.362605,0.0848605
30,1.26763,3.16296,0.435513,0.167783
30,1.26764,0.793631,0.6317659,0.383878
30,1.26775,0.199339,1.12427,0.487615
20,1.17903,63093.824,0.332915,-0.115551
20,1.17903,15847.683,0.344864,-0.0133706
20,1.17902,3981.27,0.362935,0.0120863
20,1.17901,1000.32,0.380302,0.019729
20,1.179002,251.044,0.397446,0.0302106
20,1.179,63.0823,0.429503,0.0531976
20,1.17899,15.8576,0.479362,0.0906467
20,1.17898,3.97785,0.56159,0.166019
20,1.17906,1.00006,0.687243,0.37392
20,1.17948,0.251222,1.1697,0.9414131
20,1.1798,79433.273,0.332866,-0.149886
20,1.17949,19948.785,0.3409,-0.022064
20,1.17935,5011.604,0.358807,0.0100425
20,1.17929,1258.79,0.375168,0.0188466
20,1.17923,316.316,0.396646,0.0288687
20,1.17919,79.4155,0.422839,0.04719945
20,1.179153,19.9553,0.469888,0.0824202
20,1.17916,5.00801,0.547166,0.149357
20,1.1791,1.25967,0.661151,0.319426
20,1.17934,0.3161931,1.027925,0.829081
10,1.128787,100003.71,0.595527,-0.190483
10,1.12881,25116.91,0.603229,-0.0222074
10,1.1288,6307.73,0.634068,0.0331021
10,1.12881,1585.51,0.681649,0.0735173
10,1.128809,398.089,0.759878,0.123713
10,1.12881,100.032,0.9020288,0.1755126
10,1.128842,25.1044,1.07479,0.189759
10,1.1288,6.31058,1.22896,0.221854
10,1.12884,1.58533,1.40451,0.342575
10,1.1289,0.397745,1.67396,0.762445
10,1.1288,0.10007,2.70636,1.61853
10,1.12839,31621.139,0.599302,-0.036001
10,1.128708,7943.999,0.625611,0.0250898
10,1.12886,1995.64,0.667841,0.0669181
10,1.12894,501.444,0.743002,0.111959
10,1.129,125.846,0.87073,0.170493
10,1.12904,31.6296,1.04343,0.190449
10,1.12907,7.93953,1.1989,0.210539
10,1.12912,1.99553,1.36898,0.311044
10,1.12915,0.501541,1.60315,0.65217
10,1.12913,0.125939,2.41658,1.5185
0,0.976861,39814.059,0.639067,-0.0496675
0,0.976869,10002.226,0.668507,0.02972604
0,0.976878,2510.8,0.715776,0.0784136
0,0.976882,631.01,0.802985,0.144798
0,0.976899,158.428,0.955379,0.254577
0,0.976917,39.8089,1.25193,0.399734
0,0.976842,10.0032,1.64675,0.47445
0,0.976759,2.51367,1.94941,0.682301
0,0.976929,0.630905,2.39936,1.78001
0,0.975932,0.158607,4.5943,4.69401
0,0.971872,50122.477,0.636086,-0.0762366
0,0.97361,12590.93,0.662836,0.0223515
0,0.974602,3161.01,0.708253,0.0705656
0,0.9753,794.238,0.785202,0.13205
0,0.975795,199.553,0.923313,0.233793
0,0.976142,50.1444,1.18933,0.378431
0,0.9764536,12.6008,1.58429,0.464884
0,0.976848,3.16296,1.90508,0.613374
0,0.976954,0.793631,2.27075,1.48597
0,0.977154,0.199339,3.98072,4.12421
0,0.97614,0.10007,6.20144,5.84823